Experiment	bias spectroscopy	
Saved Date	06.11.2019 10:19:41	
User		
Date		
X (m)	-3.0725E-6	
Y (m)	3.07822E-6	
Z (m)	-313.111E-9	
Z offset (m)	0E+0	
Settling time (s)	200E-6	
Integration time (s)	100E-6	
Z-Ctrl hold	TRUE	
Final Z (m)	N/A	
Start time	06.11.2019 10:19:09	
Filter type	None	
Order		
Cutoff frq		

[DATA]
Bias calc (V)	OC M1 Freq. Shift (Hz)	OC M1 Freq. Shift [bwd] (Hz)
-1.0000000E+0	-19.398054E+0	-19.017183E+0
-992.15686E-3	-20.008530E+0	-19.755962E+0
-984.31373E-3	-19.896988E+0	-19.775595E+0
-976.47059E-3	-19.464615E+0	-19.337780E+0
-968.62745E-3	-19.068544E+0	-19.362446E+0
-960.78432E-3	-18.977282E+0	-19.386461E+0
-952.94118E-3	-19.267115E+0	-19.339445E+0
-945.09804E-3	-18.802410E+0	-19.199383E+0
-937.25491E-3	-19.259525E+0	-19.123508E+0
-929.41177E-3	-18.467840E+0	-18.981480E+0
-921.56863E-3	-18.672998E+0	-18.080185E+0
-913.72550E-3	-18.187735E+0	-18.050699E+0
-905.88236E-3	-18.429405E+0	-18.497606E+0
-898.03922E-3	-18.046288E+0	-18.094099E+0
-890.19608E-3	-17.818047E+0	-17.751480E+0
-882.35295E-3	-17.769651E+0	-17.386312E+0
-874.50981E-3	-18.214746E+0	-18.044960E+0
-866.66667E-3	-17.879671E+0	-17.838390E+0
-858.82354E-3	-17.077763E+0	-17.389673E+0
-850.98040E-3	-17.487976E+0	-17.754280E+0
-843.13726E-3	-17.104801E+0	-17.345392E+0
-835.29413E-3	-18.097963E+0	-17.827826E+0
-827.45099E-3	-17.090780E+0	-17.586023E+0
-819.60785E-3	-17.022158E+0	-17.001734E+0
-811.76472E-3	-17.021107E+0	-17.190205E+0
-803.92158E-3	-16.733128E+0	-16.897093E+0
-796.07844E-3	-17.128819E+0	-17.179195E+0
-788.23531E-3	-16.977777E+0	-17.105358E+0
-780.39217E-3	-16.598101E+0	-15.918278E+0
-772.54903E-3	-16.973900E+0	-16.594561E+0
-764.70590E-3	-17.416307E+0	-16.507710E+0
-756.86276E-3	-16.586493E+0	-16.266108E+0
-749.01962E-3	-16.863657E+0	-16.314341E+0
-741.17649E-3	-15.778684E+0	-15.957945E+0
-733.33335E-3	-16.847874E+0	-16.626028E+0
-725.49021E-3	-16.287413E+0	-16.011639E+0
-717.64708E-3	-16.197203E+0	-15.997590E+0
-709.80394E-3	-16.547695E+0	-15.998214E+0
-701.96080E-3	-16.402710E+0	-15.531878E+0
-694.11767E-3	-16.267672E+0	-15.647688E+0
-686.27453E-3	-15.938486E+0	-15.829336E+0
-678.43139E-3	-16.075838E+0	-15.668548E+0
-670.58825E-3	-15.438098E+0	-15.258773E+0
-662.74512E-3	-15.737980E+0	-14.803360E+0
-654.90198E-3	-15.600899E+0	-15.436033E+0
-647.05884E-3	-16.344437E+0	-15.797679E+0
-639.21571E-3	-15.461859E+0	-15.168888E+0
-631.37257E-3	-14.979407E+0	-14.858953E+0
-623.52937E-3	-15.095717E+0	-15.229231E+0
-615.68624E-3	-15.422245E+0	-15.345313E+0
-607.84310E-3	-15.406007E+0	-14.831208E+0
-599.99996E-3	-14.413944E+0	-14.082371E+0
-592.15683E-3	-15.624430E+0	-15.235354E+0
-584.31369E-3	-14.836286E+0	-15.292755E+0
-576.47055E-3	-15.058689E+0	-14.700461E+0
-568.62742E-3	-14.551111E+0	-14.817919E+0
-560.78428E-3	-14.952325E+0	-14.856276E+0
-552.94114E-3	-14.333881E+0	-15.223570E+0
-545.09801E-3	-14.422292E+0	-14.908197E+0
-537.25487E-3	-14.595330E+0	-15.109975E+0
-529.41173E-3	-14.517380E+0	-15.228152E+0
-521.56860E-3	-14.235030E+0	-14.029575E+0
-513.72546E-3	-13.998428E+0	-14.320189E+0
-505.88232E-3	-14.409987E+0	-14.858186E+0
-498.03919E-3	-13.890447E+0	-14.472903E+0
-490.19605E-3	-14.080346E+0	-14.178124E+0
-482.35291E-3	-13.478110E+0	-14.288907E+0
-474.50978E-3	-14.299328E+0	-14.808022E+0
-466.66664E-3	-13.985012E+0	-14.853712E+0
-458.82350E-3	-13.272582E+0	-13.878777E+0
-450.98037E-3	-13.415545E+0	-14.069255E+0
-443.13723E-3	-13.001471E+0	-13.837152E+0
-435.29409E-3	-13.908055E+0	-14.227686E+0
-427.45095E-3	-13.481129E+0	-13.942487E+0
-419.60782E-3	-14.025393E+0	-13.268044E+0
-411.76468E-3	-13.804988E+0	-13.785106E+0
-403.92154E-3	-13.750949E+0	-13.540529E+0
-396.07841E-3	-14.023831E+0	-13.994747E+0
-388.23527E-3	-13.654235E+0	-14.170196E+0
-380.39213E-3	-12.999905E+0	-13.439525E+0
-372.54900E-3	-13.320172E+0	-13.500242E+0
-364.70586E-3	-13.667160E+0	-13.655439E+0
-356.86272E-3	-13.672663E+0	-13.605303E+0
-349.01959E-3	-13.670494E+0	-13.731049E+0
-341.17645E-3	-12.563745E+0	-13.050995E+0
-333.33331E-3	-13.473706E+0	-13.375908E+0
-325.49018E-3	-13.480087E+0	-13.688464E+0
-317.64704E-3	-13.294607E+0	-13.271696E+0
-309.80390E-3	-13.420616E+0	-13.758334E+0
-301.96077E-3	-13.272933E+0	-13.015452E+0
-294.11763E-3	-13.044650E+0	-13.242390E+0
-286.27449E-3	-13.535332E+0	-13.308743E+0
-278.43136E-3	-13.541553E+0	-13.452085E+0
-270.58822E-3	-13.564626E+0	-13.218773E+0
-262.74508E-3	-13.177442E+0	-12.914633E+0
-254.90195E-3	-13.130526E+0	-12.545708E+0
-247.05875E-3	-14.188708E+0	-13.744334E+0
-239.21561E-3	-12.954129E+0	-12.851508E+0
-231.37248E-3	-12.764396E+0	-12.688979E+0
-223.52934E-3	-12.977209E+0	-13.103648E+0
-215.68620E-3	-13.547372E+0	-12.822607E+0
-207.84307E-3	-13.230753E+0	-12.900390E+0
-199.99993E-3	-12.496827E+0	-11.983190E+0
-192.15679E-3	-12.759480E+0	-12.769726E+0
-184.31365E-3	-13.127497E+0	-12.631045E+0
-176.47052E-3	-13.057476E+0	-12.685978E+0
-168.62738E-3	-13.146557E+0	-13.006578E+0
-160.78424E-3	-13.549781E+0	-12.628842E+0
-152.94111E-3	-13.080153E+0	-12.775512E+0
-145.09797E-3	-12.715578E+0	-12.509765E+0
-137.25483E-3	-12.701298E+0	-12.926299E+0
-129.41170E-3	-13.028550E+0	-12.896676E+0
-121.56856E-3	-12.588203E+0	-12.332057E+0
-113.72542E-3	-12.657974E+0	-12.191175E+0
-105.88229E-3	-12.891167E+0	-12.912016E+0
-98.039150E-3	-13.013742E+0	-12.816305E+0
-90.196013E-3	-12.731718E+0	-12.336204E+0
-82.352877E-3	-12.201159E+0	-11.863878E+0
-74.509740E-3	-13.083766E+0	-12.537667E+0
-66.666603E-3	-13.229574E+0	-12.982737E+0
-58.823466E-3	-13.045894E+0	-12.067791E+0
-50.980330E-3	-12.592507E+0	-12.543695E+0
-43.137193E-3	-12.879217E+0	-12.746379E+0
-35.294056E-3	-12.829367E+0	-12.942392E+0
-27.450919E-3	-12.900963E+0	-12.781307E+0
-19.607782E-3	-12.618011E+0	-12.573736E+0
-11.764646E-3	-12.844833E+0	-12.351367E+0
-3.9215088E-3	-13.059865E+0	-12.701703E+0
3.9216280E-3	-13.083494E+0	-12.056952E+0
11.764765E-3	-13.311967E+0	-12.927155E+0
19.607902E-3	-12.508027E+0	-12.491838E+0
27.451038E-3	-12.787634E+0	-12.222091E+0
35.294175E-3	-12.659539E+0	-12.349448E+0
43.137312E-3	-12.841609E+0	-12.566738E+0
50.980449E-3	-12.734334E+0	-13.049179E+0
58.823586E-3	-12.323189E+0	-12.087415E+0
66.666722E-3	-12.314813E+0	-12.332150E+0
74.509859E-3	-12.537472E+0	-12.838605E+0
82.352996E-3	-12.531761E+0	-12.519035E+0
90.196133E-3	-12.717363E+0	-12.479911E+0
98.039269E-3	-12.722616E+0	-11.947753E+0
105.88241E-3	-12.407293E+0	-12.396752E+0
113.72554E-3	-13.264408E+0	-12.807064E+0
121.56868E-3	-12.875435E+0	-12.279512E+0
129.41182E-3	-13.292023E+0	-12.386554E+0
137.25495E-3	-12.247869E+0	-12.166492E+0
145.09809E-3	-12.618545E+0	-12.170691E+0
152.94123E-3	-13.268493E+0	-13.143955E+0
160.78436E-3	-12.794201E+0	-12.666147E+0
168.62750E-3	-12.620168E+0	-12.659351E+0
176.47064E-3	-12.588532E+0	-12.354792E+0
184.31377E-3	-13.410136E+0	-12.652732E+0
192.15691E-3	-13.703731E+0	-13.214895E+0
200.00005E-3	-12.824330E+0	-12.389550E+0
207.84318E-3	-12.871882E+0	-12.654409E+0
215.68632E-3	-13.478412E+0	-13.000052E+0
223.52946E-3	-13.068903E+0	-12.799502E+0
231.37259E-3	-13.642307E+0	-13.046858E+0
239.21573E-3	-13.485134E+0	-13.104863E+0
247.05887E-3	-13.193563E+0	-12.618985E+0
254.90201E-3	-13.266944E+0	-12.978410E+0
262.74514E-3	-12.950611E+0	-12.595981E+0
270.58828E-3	-13.862358E+0	-13.363670E+0
278.43142E-3	-13.373877E+0	-13.337752E+0
286.27455E-3	-13.121604E+0	-12.376748E+0
294.11769E-3	-13.578370E+0	-13.221589E+0
301.96083E-3	-14.219628E+0	-13.079550E+0
309.80396E-3	-13.671663E+0	-12.993117E+0
317.64710E-3	-13.151191E+0	-12.522950E+0
325.49024E-3	-13.233649E+0	-12.792239E+0
333.33337E-3	-14.389260E+0	-13.670218E+0
341.17651E-3	-13.979813E+0	-12.972364E+0
349.01965E-3	-13.856291E+0	-13.047536E+0
356.86278E-3	-14.181550E+0	-13.434246E+0
364.70592E-3	-13.944260E+0	-13.502561E+0
372.54906E-3	-13.795252E+0	-13.528141E+0
380.39219E-3	-13.743850E+0	-13.086982E+0
388.23533E-3	-13.989409E+0	-13.411634E+0
396.07847E-3	-13.764050E+0	-13.387343E+0
403.92160E-3	-13.857239E+0	-12.933030E+0
411.76474E-3	-14.500276E+0	-13.825736E+0
419.60788E-3	-14.547428E+0	-13.701797E+0
427.45101E-3	-14.046759E+0	-13.384792E+0
435.29415E-3	-13.936676E+0	-12.882088E+0
443.13729E-3	-14.502559E+0	-13.496872E+0
450.98042E-3	-14.365791E+0	-14.103368E+0
458.82356E-3	-13.903877E+0	-13.676208E+0
466.66670E-3	-13.433014E+0	-13.353687E+0
474.50984E-3	-14.714225E+0	-14.216426E+0
482.35297E-3	-14.484123E+0	-14.210719E+0
490.19611E-3	-14.730555E+0	-13.917874E+0
498.03925E-3	-14.149021E+0	-13.802565E+0
505.88250E-3	-14.092256E+0	-13.788312E+0
513.72564E-3	-14.847482E+0	-14.055651E+0
521.56878E-3	-14.619870E+0	-13.794620E+0
529.41191E-3	-15.200215E+0	-14.256684E+0
537.25505E-3	-14.809899E+0	-14.450242E+0
545.09819E-3	-14.882471E+0	-13.975489E+0
552.94132E-3	-15.080273E+0	-14.678879E+0
560.78446E-3	-15.166290E+0	-14.633533E+0
568.62760E-3	-14.759352E+0	-14.886353E+0
576.47073E-3	-14.777890E+0	-14.336245E+0
584.31387E-3	-15.123719E+0	-14.548703E+0
592.15701E-3	-15.591623E+0	-15.096052E+0
600.00014E-3	-15.415239E+0	-14.835768E+0
607.84328E-3	-14.946296E+0	-14.484779E+0
615.68642E-3	-15.625407E+0	-14.891773E+0
623.52955E-3	-15.163326E+0	-14.623517E+0
631.37269E-3	-15.814223E+0	-15.489028E+0
639.21583E-3	-15.653708E+0	-15.031926E+0
647.05896E-3	-15.581366E+0	-15.108097E+0
654.90210E-3	-16.000103E+0	-15.585930E+0
662.74524E-3	-15.645670E+0	-15.253324E+0
670.58837E-3	-16.458096E+0	-15.999793E+0
678.43151E-3	-15.839876E+0	-15.868428E+0
686.27465E-3	-15.208011E+0	-15.302670E+0
694.11778E-3	-15.991513E+0	-15.823346E+0
701.96092E-3	-16.787241E+0	-16.123631E+0
709.80406E-3	-16.375704E+0	-16.101658E+0
717.64719E-3	-16.306421E+0	-16.008520E+0
725.49033E-3	-15.913766E+0	-15.466068E+0
733.33347E-3	-16.690685E+0	-16.409571E+0
741.17661E-3	-16.424566E+0	-16.558603E+0
749.01974E-3	-16.501040E+0	-15.934371E+0
756.86288E-3	-17.230206E+0	-16.698828E+0
764.70602E-3	-16.691896E+0	-16.340910E+0
772.54915E-3	-17.159611E+0	-16.890867E+0
780.39229E-3	-17.181271E+0	-16.612236E+0
788.23543E-3	-17.800671E+0	-16.846081E+0
796.07856E-3	-17.172697E+0	-16.863306E+0
803.92170E-3	-17.310217E+0	-16.522129E+0
811.76484E-3	-17.632490E+0	-17.228537E+0
819.60797E-3	-18.157518E+0	-17.621782E+0
827.45111E-3	-17.277756E+0	-17.343029E+0
835.29425E-3	-17.346378E+0	-17.094854E+0
843.13738E-3	-17.894413E+0	-17.598566E+0
850.98052E-3	-18.359972E+0	-17.845507E+0
858.82366E-3	-18.373478E+0	-17.787508E+0
866.66679E-3	-17.868486E+0	-17.157806E+0
874.50993E-3	-18.993086E+0	-18.222460E+0
882.35307E-3	-18.826748E+0	-18.476822E+0
890.19620E-3	-18.913046E+0	-18.117226E+0
898.03934E-3	-18.431978E+0	-18.098885E+0
905.88248E-3	-18.593945E+0	-18.263165E+0
913.72561E-3	-18.929754E+0	-18.806364E+0
921.56875E-3	-18.833269E+0	-18.210314E+0
929.41189E-3	-19.487858E+0	-18.779434E+0
937.25502E-3	-19.132854E+0	-19.086723E+0
945.09816E-3	-19.016712E+0	-18.775967E+0
952.94130E-3	-19.593439E+0	-19.136120E+0
960.78444E-3	-19.633909E+0	-19.661400E+0
968.62757E-3	-19.204258E+0	-19.831326E+0
976.47071E-3	-19.184343E+0	-19.684429E+0
984.31385E-3	-19.272396E+0	-19.348000E+0
992.15698E-3	-20.214697E+0	-20.472145E+0
1.0000000E+0	-19.927639E+0	-20.047812E+0
